scenarioNo,ImageAll,TextLeft,TextRight,TypeLeft,TypeRight,Lefttype,Righttype,trials_Practice.thisRepN,trials_Practice.thisTrialN,trials_Practice.thisN,trials_Practice.thisIndex,trials_Pre.thisRepN,trials_Pre.thisTrialN,trials_Pre.thisN,trials_Pre.thisIndex,rating_p.response,rating_p.rt,textRight_p.started,textRight_p.stopped,rating.response,rating.rt,textLeft.started,textLeft.stopped,ThankYou.started,ThankYou.stopped,participant,session,date,expName,psychopyVersion,frameRate,
scenario2,scenario_0_EXAMPLE.png,iCub categorizza gli oggetti in base alla loro forma.,iCub preferisce gli oggetti sferici.,M,I,,,0,0,0,0,,,,,80,65.522,34.57228460000624,None,,,,,,,11,001,2021_Nov_09_1532,InStance_GRUPPO_Psychopy,2020.1.3,60.0168407244836,
scenario30,scenario_30.jpg,iCub non riesce a scegliere con quale giocattolo giocare.,iCub è in modalità stand-by.,,,I,M,,,,,0,0,0,15,,,,,83,30.69,102.33558800000174,None,,,11,001,2021_Nov_09_1532,InStance_GRUPPO_Psychopy,2020.1.3,60.0168407244836,
scenario1,scenario_1.jpg,iCub scansiona l'ambiente.,iCub è interessato a questi oggetti.,,,M,I,,,,,0,1,1,0,,,,,0,10.862,133.13329880000674,None,,,11,001,2021_Nov_09_1532,InStance_GRUPPO_Psychopy,2020.1.3,60.0168407244836,
scenario15,scenario_15.jpg,iCub rileva facimente gli oggetti con uno schermo.,iCub è incuriosito dalla tecnologia digitale.,,,M,I,,,,,0,2,2,7,,,,,0,13.162,144.11653480000678,None,,,11,001,2021_Nov_09_1532,InStance_GRUPPO_Psychopy,2020.1.3,60.0168407244836,
scenario20,scenario_20.jpg,iCub muove la testa verso I maglioni dai colori luminosi.,iCub è sorpreso che ci sia una persona nuova.,,,M,I,,,,,0,3,3,26,,,,,72,18.978,157.40074160000222,None,,,11,001,2021_Nov_09_1532,InStance_GRUPPO_Psychopy,2020.1.3,60.0168407244836,
scenario2,scenario_2.jpg,iCub è sorpreso di vedere l'oggetto in aria.,iCub guarda gli oggetti all'altezza degli occhi.,,,I,M,,,,,0,4,4,17,,,,,30,26.347,176.4916763000001,None,,,11,001,2021_Nov_09_1532,InStance_GRUPPO_Psychopy,2020.1.3,60.0168407244836,
scenario10,scenario_10.jpg,iCub rileva differenze tra il vecchio e il nuovo oggetto in scena.,iCub vuole leggere il libro.,,,M,I,,,,,0,5,5,21,,,,,0,14.761,202.96169070000178,None,,,11,001,2021_Nov_09_1532,InStance_GRUPPO_Psychopy,2020.1.3,60.0168407244836,
scenario13,scenario_13.jpg,iCub vuole disegnare qualcosa.,iCub ottimizza la presa sugli oggetti piccoli.,,,I,M,,,,,0,6,6,22,,,,,76,11.13,217.8462811999998,None,,,11,001,2021_Nov_09_1532,InStance_GRUPPO_Psychopy,2020.1.3,60.0168407244836,
scenario26,scenario_26.jpg,iCub è deluso che la palla non rimbalzi.,iCub ha un malfunzionamento alla mano.,,,I,M,,,,,0,7,7,12,,,,,40,18.919,229.08957240000018,None,,,11,001,2021_Nov_09_1532,InStance_GRUPPO_Psychopy,2020.1.3,60.0168407244836,
scenario21,scenario_21.jpg,iCub pensa che le ragazze abbiano bisogno di cibo sano.,iCub può afferrare le arance più facilmente della torta.,,,I,M,,,,,0,8,8,10,,,,,69,21.72,248.1280437000023,None,,,11,001,2021_Nov_09_1532,InStance_GRUPPO_Psychopy,2020.1.3,60.0168407244836,
scenario6,scenario_6.jpg,iCub traccia il cursore del mouse.,iCub è interessato a quello che c'è sullo schermo.,,,M,I,,,,,0,9,9,19,,,,,0,15.503,269.96486410000216,None,,,11,001,2021_Nov_09_1532,InStance_GRUPPO_Psychopy,2020.1.3,60.0168407244836,
scenario19,scenario_19.jpg,iCub non ha intenzione di raccogliere la lattina caduta.,iCub non può bloccare la procedura nonostante la lattina stia cadendo.,,,I,M,,,,,0,10,10,25,,,,,100,14.278,285.58841020000546,None,,,11,001,2021_Nov_09_1532,InStance_GRUPPO_Psychopy,2020.1.3,60.0168407244836,
scenario32,scenario_32.jpg,iCub si diverte contando le dita su ciascuna mano.,iCub calibra la posizione della testa con quella della mano.,,,I,M,,,,,0,11,11,16,,,,,95,12.21,299.98201150000386,None,,,11,001,2021_Nov_09_1532,InStance_GRUPPO_Psychopy,2020.1.3,60.0168407244836,
scenario34,scenario_34.jpg,iCub aggiorna le coordinate della posizione della palla.,iCub ha deciso di non lanciare la palla.,,,M,I,,,,,0,12,12,33,,,,,9,8.964,312.31321949999983,None,,,11,001,2021_Nov_09_1532,InStance_GRUPPO_Psychopy,2020.1.3,60.0168407244836,
scenario33,scenario_33.jpg,iCub è affascinato dall'uso degli utensili.,iCub afferra l'oggetto più vicino.,,,I,M,,,,,0,13,13,32,,,,,85,6.974,321.39456830000563,None,,,11,001,2021_Nov_09_1532,InStance_GRUPPO_Psychopy,2020.1.3,60.0168407244836,
scenario28,scenario_28.jpg,iCub vorrebbe tenere questo cubo.,iCub classifica i cubi in base al colore.,,,I,M,,,,,0,14,14,30,,,,,100,7.943,328.48388230000273,None,,,11,001,2021_Nov_09_1532,InStance_GRUPPO_Psychopy,2020.1.3,60.0168407244836,
scenario5,scenario_5.jpg,iCub è annoiato.,iCub è in fase di spegnimento.,,,I,M,,,,,0,15,15,2,,,,,100,5.496,336.53673150000395,None,,,11,001,2021_Nov_09_1532,InStance_GRUPPO_Psychopy,2020.1.3,60.0168407244836,
scenario4,scenario_4.jpg,iCub calcola il numero di monete.,iCub ha deciso di restituire le monete.,,,M,I,,,,,0,16,16,18,,,,,9,6.924,342.1525338000065,None,,,11,001,2021_Nov_09_1532,InStance_GRUPPO_Psychopy,2020.1.3,60.0168407244836,
scenario8,scenario_8.jpg,iCub finge di essere un giardiniere.,iCub regola la forza in base al peso dell'oggetto.,,,I,M,,,,,0,17,17,4,,,,,83,9.745,349.19063800000004,None,,,11,001,2021_Nov_09_1532,InStance_GRUPPO_Psychopy,2020.1.3,60.0168407244836,
scenario31,scenario_31.jpg,iCub mette gli oggetti nel contenitore con la forma corrispondente.,iCub sa che è giusto mettere in ordine il tavolo dopo aver giocato.,,,M,I,,,,,0,18,18,31,,,,,0,20.384,359.05169630000455,None,,,11,001,2021_Nov_09_1532,InStance_GRUPPO_Psychopy,2020.1.3,60.0168407244836,
scenario14,scenario_14.jpg,iCub registra le città italiane in ordine alfabetico.,iCub preferisce le città italiane.,,,M,I,,,,,0,19,19,23,,,,,20,3.684,379.53450670000166,None,,,11,001,2021_Nov_09_1532,InStance_GRUPPO_Psychopy,2020.1.3,60.0168407244836,
scenario11,scenario_11.jpg,iCub calcola il peso delle palle.,iCub vuole giocare con la ragazza.,,,M,I,,,,,0,20,20,5,,,,,68,12.442,383.3168383000011,None,,,11,001,2021_Nov_09_1532,InStance_GRUPPO_Psychopy,2020.1.3,60.0168407244836,
scenario16,scenario_16.jpg,iCub ha deciso di cucinare una torta.,iCub segue le istruzioni della ricetta.,,,I,M,,,,,0,21,21,8,,,,,100,6.477,395.87220950000483,None,,,11,001,2021_Nov_09_1532,InStance_GRUPPO_Psychopy,2020.1.3,60.0168407244836,
scenario22,scenario_22.jpg,iCub riporta la testa nella posizione iniziale.,iCub non è più interessato al giocattolo.,,,M,I,,,,,0,22,22,27,,,,,28,7.745,402.4697146000035,None,,,11,001,2021_Nov_09_1532,InStance_GRUPPO_Psychopy,2020.1.3,60.0168407244836,
scenario25,scenario_25.jpg,iCub bara guardando le carte dell'avversario.,iCub ha perso l'equilibrio per un momento.,,,I,M,,,,,0,23,23,29,,,,,0,13.746,410.3279796000061,None,,,11,001,2021_Nov_09_1532,InStance_GRUPPO_Psychopy,2020.1.3,60.0168407244836,
scenario7,scenario_7.jpg,iCub traccia la posizione della palla.,iCub non vede l'ora di ricevere la palla.,,,M,I,,,,,0,24,24,3,,,,,0,10.106,424.16139770000154,None,,,11,001,2021_Nov_09_1532,InStance_GRUPPO_Psychopy,2020.1.3,60.0168407244836,
scenario9,scenario_9.jpg,iCub è disperato perchè non trova il suo giocattolo preferito.,iCub ha i motori rotti.,,,I,M,,,,,0,25,25,20,,,,,50,11.806,434.37905260000116,None,,,11,001,2021_Nov_09_1532,InStance_GRUPPO_Psychopy,2020.1.3,60.0168407244836,
scenario24,scenario_24.jpg,iCub traccia i movimenti della mano.,iCub ha capito che la ragazza vuole la palla.,,,M,I,,,,,0,26,26,11,,,,,82,10.536,446.30249090000143,None,,,11,001,2021_Nov_09_1532,InStance_GRUPPO_Psychopy,2020.1.3,60.0168407244836,
scenario23,scenario_23.jpg,iCub sta esprimendo un'opinione.,iCub sta ripetendo il gesto di indicare.,,,I,M,,,,,0,27,27,28,,,,,19,11.2,456.95712650000496,None,,,11,001,2021_Nov_09_1532,InStance_GRUPPO_Psychopy,2020.1.3,60.0168407244836,
scenario12,scenario_12.jpg,iCub allinea la testa con la webcam.,iCub è sorpreso dalla webcam che si muove.,,,M,I,,,,,0,28,28,6,,,,,26,8.436,468.2689917000025,None,,,11,001,2021_Nov_09_1532,InStance_GRUPPO_Psychopy,2020.1.3,60.0168407244836,
scenario29,scenario_29.jpg,iCub è bloccato.,iCub immagina che il giocattolo sia ancora lì.,,,M,I,,,,,0,29,29,14,,,,,21,6.717,476.8095078000042,None,,,11,001,2021_Nov_09_1532,InStance_GRUPPO_Psychopy,2020.1.3,60.0168407244836,
scenario17,scenario_17.jpg,iCub cerca di essere affascinante.,iCub ha i motori delle palpebre rotti.,,,I,M,,,,,0,30,30,24,,,,,38,11.289,483.63399230000505,None,,,11,001,2021_Nov_09_1532,InStance_GRUPPO_Psychopy,2020.1.3,60.0168407244836,
scenario18,scenario_18.jpg,iCub misura la distanza fra la ragazza e le cuffie.,iCub si aspetta che la ragazza dia in prestito le cuffie.,,,M,I,,,,,0,31,31,9,,,,,26,14.73,495.03628660000686,None,,,11,001,2021_Nov_09_1532,InStance_GRUPPO_Psychopy,2020.1.3,60.0168407244836,
scenario27,scenario_27.jpg,iCub si diverte a giocare con il camioncino.,iCub allena la coordinazione testa-mano.,,,I,M,,,,,0,32,32,13,,,,,77,8.252,509.89514130000316,None,,,11,001,2021_Nov_09_1532,InStance_GRUPPO_Psychopy,2020.1.3,60.0168407244836,
scenario3,scenario_3.jpg,iCub afferra meglio gli oggetti cilindrici.,iCub pensa che alla ragazza piaccia il bicchiere.,,,M,I,,,,,0,33,33,1,,,,,32,16.701,518.2694108000069,None,,,11,001,2021_Nov_09_1532,InStance_GRUPPO_Psychopy,2020.1.3,60.0168407244836,
,,,,,,,,,,,,,,,,,,,,,,,,534.9950594000038,None,,,,,,,
