scenarioNo,ImageAll,TextLeft,TextRight,TypeLeft,TypeRight,Lefttype,Righttype,trials_Practice.thisRepN,trials_Practice.thisTrialN,trials_Practice.thisN,trials_Practice.thisIndex,trials_Pre.thisRepN,trials_Pre.thisTrialN,trials_Pre.thisN,trials_Pre.thisIndex,rating_p.response,rating_p.rt,textRight_p.started,textRight_p.stopped,rating.response,rating.rt,textLeft.started,textLeft.stopped,ThankYou.started,ThankYou.stopped,participant,session,date,expName,psychopyVersion,frameRate,
scenario2,scenario_0_EXAMPLE.png,iCub categorizza gli oggetti in base alla loro forma.,iCub preferisce gli oggetti sferici.,M,I,,,0,0,0,0,,,,,0,28.502,30.39023739998811,None,,,,,,,15,001,2021_Nov_11_1004,InStance_GRUPPO_Psychopy,2020.1.3,60.015399955357296,
scenario29,scenario_29.jpg,iCub è bloccato.,iCub immagina che il giocattolo sia ancora lì.,,,M,I,,,,,0,0,0,14,,,,,0,13.033,62.70767039999191,None,,,15,001,2021_Nov_11_1004,InStance_GRUPPO_Psychopy,2020.1.3,60.015399955357296,
scenario13,scenario_13.jpg,iCub vuole disegnare qualcosa.,iCub ottimizza la presa sugli oggetti piccoli.,,,I,M,,,,,0,1,1,22,,,,,72,10.722,75.86843499999668,None,,,15,001,2021_Nov_11_1004,InStance_GRUPPO_Psychopy,2020.1.3,60.015399955357296,
scenario25,scenario_25.jpg,iCub bara guardando le carte dell'avversario.,iCub ha perso l'equilibrio per un momento.,,,I,M,,,,,0,2,2,29,,,,,29,10.59,86.71523109999544,None,,,15,001,2021_Nov_11_1004,InStance_GRUPPO_Psychopy,2020.1.3,60.015399955357296,
scenario4,scenario_4.jpg,iCub calcola il numero di monete.,iCub ha deciso di restituire le monete.,,,M,I,,,,,0,3,3,18,,,,,29,14.387,97.42303649999667,None,,,15,001,2021_Nov_11_1004,InStance_GRUPPO_Psychopy,2020.1.3,60.015399955357296,
scenario30,scenario_30.jpg,iCub non riesce a scegliere con quale giocattolo giocare.,iCub è in modalità stand-by.,,,I,M,,,,,0,4,4,15,,,,,39,14.436,111.93974019998859,None,,,15,001,2021_Nov_11_1004,InStance_GRUPPO_Psychopy,2020.1.3,60.015399955357296,
scenario10,scenario_10.jpg,iCub rileva differenze tra il vecchio e il nuovo oggetto in scena.,iCub vuole leggere il libro.,,,M,I,,,,,0,5,5,21,,,,,59,15.617,126.5007418999885,None,,,15,001,2021_Nov_11_1004,InStance_GRUPPO_Psychopy,2020.1.3,60.015399955357296,
scenario31,scenario_31.jpg,iCub mette gli oggetti nel contenitore con la forma corrispondente.,iCub sa che è giusto mettere in ordine il tavolo dopo aver giocato.,,,M,I,,,,,0,6,6,31,,,,,38,15.195,142.24903130000166,None,,,15,001,2021_Nov_11_1004,InStance_GRUPPO_Psychopy,2020.1.3,60.015399955357296,
scenario16,scenario_16.jpg,iCub ha deciso di cucinare una torta.,iCub segue le istruzioni della ricetta.,,,I,M,,,,,0,7,7,8,,,,,54,15.489,157.56312049999542,None,,,15,001,2021_Nov_11_1004,InStance_GRUPPO_Psychopy,2020.1.3,60.015399955357296,
scenario15,scenario_15.jpg,iCub rileva facimente gli oggetti con uno schermo.,iCub è incuriosito dalla tecnologia digitale.,,,M,I,,,,,0,8,8,7,,,,,56,7.324,173.17906559999392,None,,,15,001,2021_Nov_11_1004,InStance_GRUPPO_Psychopy,2020.1.3,60.015399955357296,
scenario17,scenario_17.jpg,iCub cerca di essere affascinante.,iCub ha i motori delle palpebre rotti.,,,I,M,,,,,0,9,9,24,,,,,41,8.281,180.6275372999953,None,,,15,001,2021_Nov_11_1004,InStance_GRUPPO_Psychopy,2020.1.3,60.015399955357296,
scenario24,scenario_24.jpg,iCub traccia i movimenti della mano.,iCub ha capito che la ragazza vuole la palla.,,,M,I,,,,,0,10,10,11,,,,,65,7.547,189.03393009999127,None,,,15,001,2021_Nov_11_1004,InStance_GRUPPO_Psychopy,2020.1.3,60.015399955357296,
scenario6,scenario_6.jpg,iCub traccia il cursore del mouse.,iCub è interessato a quello che c'è sullo schermo.,,,M,I,,,,,0,11,11,19,,,,,57,12.932,196.71095019999484,None,,,15,001,2021_Nov_11_1004,InStance_GRUPPO_Psychopy,2020.1.3,60.015399955357296,
scenario27,scenario_27.jpg,iCub si diverte a giocare con il camioncino.,iCub allena la coordinazione testa-mano.,,,I,M,,,,,0,12,12,13,,,,,43,5.839,209.7688627999887,None,,,15,001,2021_Nov_11_1004,InStance_GRUPPO_Psychopy,2020.1.3,60.015399955357296,
scenario1,scenario_1.jpg,iCub scansiona l'ambiente.,iCub è interessato a questi oggetti.,,,M,I,,,,,0,13,13,0,,,,,54,5.896,215.7412445999944,None,,,15,001,2021_Nov_11_1004,InStance_GRUPPO_Psychopy,2020.1.3,60.015399955357296,
scenario20,scenario_20.jpg,iCub muove la testa verso I maglioni dai colori luminosi.,iCub è sorpreso che ci sia una persona nuova.,,,M,I,,,,,0,14,14,26,,,,,56,12.79,221.77460530000099,None,,,15,001,2021_Nov_11_1004,InStance_GRUPPO_Psychopy,2020.1.3,60.015399955357296,
scenario12,scenario_12.jpg,iCub allinea la testa con la webcam.,iCub è sorpreso dalla webcam che si muove.,,,M,I,,,,,0,15,15,6,,,,,61,11.869,234.68211789999623,None,,,15,001,2021_Nov_11_1004,InStance_GRUPPO_Psychopy,2020.1.3,60.015399955357296,
scenario5,scenario_5.jpg,iCub è annoiato.,iCub è in fase di spegnimento.,,,I,M,,,,,0,16,16,2,,,,,31,9.788,246.67917489999672,None,,,15,001,2021_Nov_11_1004,InStance_GRUPPO_Psychopy,2020.1.3,60.015399955357296,
scenario7,scenario_7.jpg,iCub traccia la posizione della palla.,iCub non vede l'ora di ricevere la palla.,,,M,I,,,,,0,17,17,3,,,,,54,11.078,256.58059339999454,None,,,15,001,2021_Nov_11_1004,InStance_GRUPPO_Psychopy,2020.1.3,60.015399955357296,
scenario18,scenario_18.jpg,iCub misura la distanza fra la ragazza e le cuffie.,iCub si aspetta che la ragazza dia in prestito le cuffie.,,,M,I,,,,,0,18,18,9,,,,,57,12.356,267.79007429999183,None,,,15,001,2021_Nov_11_1004,InStance_GRUPPO_Psychopy,2020.1.3,60.015399955357296,
scenario9,scenario_9.jpg,iCub è disperato perchè non trova il suo giocattolo preferito.,iCub ha i motori rotti.,,,I,M,,,,,0,19,19,20,,,,,61,19.358,280.2554259999888,None,,,15,001,2021_Nov_11_1004,InStance_GRUPPO_Psychopy,2020.1.3,60.015399955357296,
scenario33,scenario_33.jpg,iCub è affascinato dall'uso degli utensili.,iCub afferra l'oggetto più vicino.,,,I,M,,,,,0,20,20,32,,,,,38,12.038,299.7450460999971,None,,,15,001,2021_Nov_11_1004,InStance_GRUPPO_Psychopy,2020.1.3,60.015399955357296,
scenario34,scenario_34.jpg,iCub aggiorna le coordinate della posizione della palla.,iCub ha deciso di non lanciare la palla.,,,M,I,,,,,0,21,21,33,,,,,61,8.649,311.9031726999965,None,,,15,001,2021_Nov_11_1004,InStance_GRUPPO_Psychopy,2020.1.3,60.015399955357296,
scenario2,scenario_2.jpg,iCub è sorpreso di vedere l'oggetto in aria.,iCub guarda gli oggetti all'altezza degli occhi.,,,I,M,,,,,0,22,22,17,,,,,32,5.764,320.6833218999964,None,,,15,001,2021_Nov_11_1004,InStance_GRUPPO_Psychopy,2020.1.3,60.015399955357296,
scenario3,scenario_3.jpg,iCub afferra meglio gli oggetti cilindrici.,iCub pensa che alla ragazza piaccia il bicchiere.,,,M,I,,,,,0,23,23,1,,,,,57,8.683,326.5779978999926,None,,,15,001,2021_Nov_11_1004,InStance_GRUPPO_Psychopy,2020.1.3,60.015399955357296,
scenario14,scenario_14.jpg,iCub registra le città italiane in ordine alfabetico.,iCub preferisce le città italiane.,,,M,I,,,,,0,24,24,23,,,,,58,9.949,335.38756940000167,None,,,15,001,2021_Nov_11_1004,InStance_GRUPPO_Psychopy,2020.1.3,60.015399955357296,
scenario32,scenario_32.jpg,iCub si diverte contando le dita su ciascuna mano.,iCub calibra la posizione della testa con quella della mano.,,,I,M,,,,,0,25,25,16,,,,,56,8.707,345.4488891999936,None,,,15,001,2021_Nov_11_1004,InStance_GRUPPO_Psychopy,2020.1.3,60.015399955357296,
scenario21,scenario_21.jpg,iCub pensa che le ragazze abbiano bisogno di cibo sano.,iCub può afferrare le arance più facilmente della torta.,,,I,M,,,,,0,26,26,10,,,,,38,13.087,354.286806899996,None,,,15,001,2021_Nov_11_1004,InStance_GRUPPO_Psychopy,2020.1.3,60.015399955357296,
scenario22,scenario_22.jpg,iCub riporta la testa nella posizione iniziale.,iCub non è più interessato al giocattolo.,,,M,I,,,,,0,27,27,27,,,,,64,8.896,367.50045609999506,None,,,15,001,2021_Nov_11_1004,InStance_GRUPPO_Psychopy,2020.1.3,60.015399955357296,
scenario11,scenario_11.jpg,iCub calcola il peso delle palle.,iCub vuole giocare con la ragazza.,,,M,I,,,,,0,28,28,5,,,,,66,9.618,376.5152955999947,None,,,15,001,2021_Nov_11_1004,InStance_GRUPPO_Psychopy,2020.1.3,60.015399955357296,
scenario8,scenario_8.jpg,iCub finge di essere un giardiniere.,iCub regola la forza in base al peso dell'oggetto.,,,I,M,,,,,0,29,29,4,,,,,36,13.58,386.2624891000014,None,,,15,001,2021_Nov_11_1004,InStance_GRUPPO_Psychopy,2020.1.3,60.015399955357296,
scenario28,scenario_28.jpg,iCub vorrebbe tenere questo cubo.,iCub classifica i cubi in base al colore.,,,I,M,,,,,0,30,30,30,,,,,40,7.873,399.9403095000016,None,,,15,001,2021_Nov_11_1004,InStance_GRUPPO_Psychopy,2020.1.3,60.015399955357296,
scenario23,scenario_23.jpg,iCub sta esprimendo un'opinione.,iCub sta ripetendo il gesto di indicare.,,,I,M,,,,,0,31,31,28,,,,,27,9.971,407.9300884999975,None,,,15,001,2021_Nov_11_1004,InStance_GRUPPO_Psychopy,2020.1.3,60.015399955357296,
scenario26,scenario_26.jpg,iCub è deluso che la palla non rimbalzi.,iCub ha un malfunzionamento alla mano.,,,I,M,,,,,0,32,32,12,,,,,41,7.336,418.0054526999884,None,,,15,001,2021_Nov_11_1004,InStance_GRUPPO_Psychopy,2020.1.3,60.015399955357296,
scenario19,scenario_19.jpg,iCub non ha intenzione di raccogliere la lattina caduta.,iCub non può bloccare la procedura nonostante la lattina stia cadendo.,,,I,M,,,,,0,33,33,25,,,,,56,16.412,425.4782870999916,None,,,15,001,2021_Nov_11_1004,InStance_GRUPPO_Psychopy,2020.1.3,60.015399955357296,
,,,,,,,,,,,,,,,,,,,,,,,,441.9049473999912,None,,,,,,,
